<Bundle xmlns="http://hl7.org/fhir">
    <id value="210587bf-9387-48e3-9ebc-5d5f95fde729" />
    <meta>
        <profile value="https://fhir.kbv.de/StructureDefinition/KBV_PR_MIO_Vaccination_Bundle_Entry|1.1.0" />
    </meta>
    <identifier>
        <system value="urn:ietf:rfc:3986"/>
        <value value="urn:uuid:210587bf-9387-48e3-9ebc-5d5f95fde729"/>
    </identifier>
    <type value ="document"/>
    <timestamp value="2014-10-04T16:00:02Z"/>
    <entry>
        <fullUrl value="urn:uuid:1c71aa35-7ccc-4691-8f70-bd2ab5e6dead"/>
        <resource>
            <Composition>
                <id value="1c71aa35-7ccc-4691-8f70-bd2ab5e6dead" />
                <meta>
                    <profile value="https://fhir.kbv.de/StructureDefinition/KBV_PR_MIO_Vaccination_Composition_Prime|1.1.0" />
                </meta>
                <text>
                    <status value ="extensions"/>
                    <div xmlns="http://www.w3.org/1999/xhtml">
                        <h1>Composition</h1>
                    </div>
                </text>
                <status value ="final"/>
                <type>
                    <coding>
                        <system value="http://loinc.org" />
                        <code value="11369-6" />
                        <display value="History of Immunization Narrative"/>
                    </coding>
                </type>
                <subject>
                    <reference value ="urn:uuid:566ce82c-c77e-4158-993c-7aee9d16b2d0"/>
                </subject>
                <date value="2022-10-07"/>
                <author>
                    <reference value="urn:uuid:7b4b1dc7-b47a-4440-a955-1112930441f3"/>
                </author>
                <title value="Impfass"/>
                <section>
                    <code>
                        <coding>
                            <system value="http://snomed.info/sct" />
                            <version value="http://snomed.info/sct/900000000000207008/version/20210131" />
                            <code value="713404003" />
                            <display value="Vaccination given (situation)"/>
                        </coding>
                    </code>
                    <entry>
                        <reference value ="urn:uuid:72d948f1-71a0-4553-a971-ff417c57fea1"/>
                    </entry>
                    <entry>
                        <reference value ="urn:uuid:8a963fa3-b27c-4076-b700-e7e31ca7dfe3"/>
                    </entry>
                </section>
            </Composition>
        </resource>
    </entry>
    <entry>
        <fullUrl value="urn:uuid:72d948f1-71a0-4553-a971-ff417c57fea1"/>
        <resource>
        <Immunization>
            <id value="72d948f1-71a0-4553-a971-ff417c57fea1"/>
                <meta>
                    <profile value="https://fhir.kbv.de/StructureDefinition/KBV_PR_MIO_Vaccination_Record_Prime|1.1.0"/>
                </meta>
                <text>
                    <status value="extensions"/>
                    <div xmlns="http://www.w3.org/1999/xhtml">
                    <h1>Rotavirus-Schluckimpfung</h1>
                    </div>
                </text>
                <extension url ="https://fhir.kbv.de/StructureDefinition/KBV_EX_MIO_Vaccination_Entry_Type">
                    <valueCodeableConcept>
                        <coding>
                            <system value ="https://fhir.kbv.de/CodeSystem/KBV_CS_MIO_Vaccination_Technical_Entry_Type"/>
                            <code value ="Eduii"/>
                            <display value ="Eintrag digital und im Impfausweis"/>
                        </coding>
                    </valueCodeableConcept>
                </extension>
                <extension url = "https://fhir.kbv.de/StructureDefinition/KBV_EX_MIO_Vaccination_Attester">
                    <extension url= "mode">
                        <valueCodeableConcept>
                            <coding>
                                <system value ="http://hl7.org/fhir/composition-attestation-mode"/>
                                <code value ="legal"/>
                            </coding>
                        </valueCodeableConcept>
                    </extension>
                    <extension url ="party">
                        <valueReference>
                            <reference value ="urn:uuid:7b4b1dc7-b47a-4440-a955-1112930441f3"/>
                        </valueReference>
                    </extension>
                </extension>
                <status value="completed"/>
                <vaccineCode>
                    <coding>
                        <system value ="http://snomed.info/sct"/>
                        <version value="http://snomed.info/sct/900000000000207008/version/20210131" />
                        <code value ="836387005"/>
                        <display value ="Vaccine product containing Rotavirus antigen (medicinal product)">
                            <extension url ="https://fhir.kbv.de/StructureDefinition/KBV_EX_Base_Terminology_German">
                                <extension url ="content">
                                    <valueString value ="Rota-Impfstoff"/>
                                </extension>
                            </extension>
                        </display>         
                    </coding>
                    <coding>
                        <system value ="http://fhir.de/CodeSystem/dimdi/atc"/>
                        <version value="atcgm2021" />
                        <code value ="J07BH01"/>
                        <display value ="Rotavirus, lebend abgeschwächt"/>
                    </coding>
                    <coding>
                        <system value ="http://fhir.de/CodeSystem/ifa/pzn"/>
                        <code value ="12743189"/>
                        <display value ="Rotarix®"/>
                    </coding>
                    <text value ="Rotarix®"/>
                </vaccineCode>
                <patient>
                    <reference value ="urn:uuid:566ce82c-c77e-4158-993c-7aee9d16b2d0"/>
                </patient>
                <occurrenceDateTime value ="2014-04-10"/>
                <primarySource value ="true"/>
                <manufacturer>
                    <display value ="GlaxoSmithKline GmbH &amp; Co. KG"/>
                </manufacturer>
                <lotNumber value ="JJF6M1THFK"/>
                <note> 
                    <text value ="Bei einer ungewöhnlichen Impfreaktion sollte die impfende ärztliche Person benachrichtigt werden. Die ärztlich tätige Person hat, wenn der Verdacht einer gesundheitlichen Schädigung besteht, die über das übliche Ausmaß einer Impfreaktion hinaus geht verpflichtet, den Verdacht dem zuständigen Gesundheitsamt namentlich zu melden (§ 6 Absatz 1 Nr 3 des lnfektionsschutzgesetzes • lfSG) Im Falle eines Impfschadens besteht unter den Voraussetzungen des § 60 Absatz 1 lfSG ein Anspruch auf Entschädigung in entsprechender Anwendung der Vorschriften des Bundesversorgungsgesetzes. Der Antrag ist bei der für die Durchführung des Bundesversorgungsgesetzes zuständigen Behörde (§ 64 Absatz 1 lfSG, i.d.R. 'Versorgungsamt') zu stellen. Weitere Auskünfte erteilt das zuständige Gesundheitsamt."/> 
                </note>
                <protocolApplied>
                    <targetDisease>
                        <coding>
                            <system value ="http://snomed.info/sct"/>
                            <version value="http://snomed.info/sct/900000000000207008/version/20210131" />
                            <code value ="18624000"/>
                            <display value ="Disease caused by Rotavirus (disorder)">
                                <extension url ="https://fhir.kbv.de/StructureDefinition/KBV_EX_Base_Terminology_German">
                                    <extension url ="content">
                                        <valueString value ="Rotaviren-Infektion"/>
                                    </extension>
                                </extension>
                            </display>         
                        </coding>
                    </targetDisease>
                    <doseNumberString>
                        <extension url ="http://hl7.org/fhir/StructureDefinition/data-absent-reason">
                            <valueCode value ="unknown"/>
                        </extension>
                    </doseNumberString>
                </protocolApplied>
            </Immunization>
        </resource>
    </entry>
    <entry>
        <fullUrl value ="urn:uuid:8a963fa3-b27c-4076-b700-e7e31ca7dfe3"/>
        <resource>
            <Immunization>
                <id value="8a963fa3-b27c-4076-b700-e7e31ca7dfe3"/>
                <meta>
                    <profile value="https://fhir.kbv.de/StructureDefinition/KBV_PR_MIO_Vaccination_Record_Prime|1.1.0"/>
                </meta>
                <text>
                    <status value="extensions"/>
                    <div xmlns="http://www.w3.org/1999/xhtml">
                    <h1>Meningokokken</h1>
                    </div>
                </text>
                <extension url ="https://fhir.kbv.de/StructureDefinition/KBV_EX_MIO_Vaccination_Entry_Type">
                    <valueCodeableConcept>
                         <coding>
                            <system value ="https://fhir.kbv.de/CodeSystem/KBV_CS_MIO_Vaccination_Technical_Entry_Type"/>
                            <code value ="Eduii"/>
                            <display value ="Eintrag digital und im Impfausweis"/>
                        </coding>
                    </valueCodeableConcept>
                </extension>
                <extension url = "https://fhir.kbv.de/StructureDefinition/KBV_EX_MIO_Vaccination_Attester">
                    <extension url= "mode">
                        <valueCodeableConcept>
                             <coding>
                                <system value ="http://hl7.org/fhir/composition-attestation-mode"/>
                                <code value ="legal"/>
                            </coding>
                        </valueCodeableConcept>
                    </extension>
                    <extension url ="party">
                        <valueReference>
                            <reference value ="urn:uuid:7b4b1dc7-b47a-4440-a955-1112930441f3"/>
                        </valueReference>
                    </extension>
                </extension>
                <status value="completed"/>
                <vaccineCode>
                    <coding>
                        <system value ="http://snomed.info/sct"/>
                        <version value="http://snomed.info/sct/900000000000207008/version/20210131" />
                        <code value ="836401009"/>
                        <display value ="Vaccine product containing Neisseria meningitidis antigen (medicinal product)">
                            <extension url ="https://fhir.kbv.de/StructureDefinition/KBV_EX_Base_Terminology_German">
                                <extension url ="content">
                                    <valueString value ="Meningokokkenimpfstoff"/>
                                </extension>
                            </extension>
                        </display>         
                    </coding>
                    <coding>
                        <system value ="http://fhir.de/CodeSystem/dimdi/atc"/>
                        <version value="atcgm2021" />
                        <code value ="J07AH"/>
                        <display value ="Meningokokken-Impfstoffe"/>
                    </coding>
                    <coding>
                        <system value ="http://fhir.de/CodeSystem/ifa/pzn"/>
                        <code value ="09461122"/>
                        <display value ="BEXSERO®"/>
                    </coding>
                    <text value ="BEXSERO®"/>
                    </vaccineCode>
                    <patient>
                        <reference value ="urn:uuid:566ce82c-c77e-4158-993c-7aee9d16b2d0"/>
                    </patient>
                    <occurrenceDateTime value ="2014-10-04"/>
                    <primarySource value ="true"/>
                    <manufacturer>
                        <display value ="GlaxoSmithKline GmbH &amp; Co. KG"/>
                    </manufacturer>
                    <lotNumber value ="142069A"/>
                    <note> 
                        <text value ="Bei einer ungewöhnlichen Impfreaktion sollte die impfende ärztliche Person benachrichtigt werden. Die ärztlich tätige Person hat, wenn der Verdacht einer gesundheitlichen Schädigung besteht, die über das übliche Ausmaß einer Impfreaktion hinaus geht verpflichtet, den Verdacht dem zuständigen Gesundheitsamt namentlich zu melden (§ 6 Absatz 1 Nr 3 des lnfektionsschutzgesetzes • lfSG) Im Falle eines Impfschadens besteht unter den Voraussetzungen des § 60 Absatz 1 lfSG ein Anspruch auf Entschädigung in entsprechender Anwendung der Vorschriften des Bundesversorgungsgesetzes. Der Antrag ist bei der für die Durchführung des Bundesversorgungsgesetzes zuständigen Behörde (§ 64 Absatz 1 lfSG, i.d.R. 'Versorgungsamt') zu stellen. Weitere Auskünfte erteilt das zuständige Gesundheitsamt."/> 
                    </note>
                    <protocolApplied>
                        <extension url="https://fhir.kbv.de/StructureDefinition/KBV_EX_MIO_Vaccination_Follow_Up">
                        <valueDateTime value ="2014-05-21"/>
                        </extension>
                        <targetDisease>
                            <coding>
                                <system value ="http://snomed.info/sct"/>
                                <version value="http://snomed.info/sct/900000000000207008/version/20210131" />
                                <code value ="23511006"/>
                                <display value ="Meningococcal infectious disease (disorder)">
                                    <extension url ="https://fhir.kbv.de/StructureDefinition/KBV_EX_Base_Terminology_German">
                                        <extension url ="content">
                                            <valueString value ="Meningokokken-Infektion"/>
                                        </extension>
                                    </extension>
                                </display>         
                            </coding>
                        </targetDisease>
                        <doseNumberString>
                            <extension url ="http://hl7.org/fhir/StructureDefinition/data-absent-reason">
                                <valueCode value ="unknown"/>
                            </extension>
                        </doseNumberString>
                    </protocolApplied>
            </Immunization>
        </resource>
    </entry>
    <entry>
        <fullUrl value="urn:uuid:aa80d007-04f3-4045-92b6-d55c2008d610"/>
        <resource>
            <Organization>
                    <id value="aa80d007-04f3-4045-92b6-d55c2008d610" />
                    <meta>
                        <profile value="https://fhir.kbv.de/StructureDefinition/KBV_PR_MIO_Vaccination_Organization|1.1.0" />
                    </meta>
                    <name value="Praxis Dr. Edgar Schulz" />
                    <address>
                        <type value="both" />
                        <line value="Wladimir-Wiese-Straße 9/8">
                            <extension url="http://hl7.org/fhir/StructureDefinition/iso21090-ADXP-houseNumber">
                                <valueString value="9/8" />
                            </extension>
                            <extension url="http://hl7.org/fhir/StructureDefinition/iso21090-ADXP-streetName">
                                <valueString value="Wladimir-Wiese-Straße" />
                            </extension>
                        </line>
                        <city value="Viersen" />
                        <postalCode value="37220" />
                        <country value="D" />
                    </address>
            </Organization>
        </resource>
    </entry>
    <entry>
        <fullUrl value="urn:uuid:566ce82c-c77e-4158-993c-7aee9d16b2d0"/>
        <resource>
            <Patient>
                <id value="566ce82c-c77e-4158-993c-7aee9d16b2d0" />
                <meta>
                    <profile value="https://fhir.kbv.de/StructureDefinition/KBV_PR_MIO_Vaccination_Patient|1.1.0" />
                </meta>
                <identifier>
                    <type>
                        <coding>
                            <system value="http://fhir.de/CodeSystem/identifier-type-de-basis" />
                            <code value="GKV" />
                            <display value ="Gesetzliche Krankenversicherung"/>
                        </coding>
                    </type>
                    <system value="http://fhir.de/NamingSystem/gkv/kvid-10" />
                    <value value="B783522772" />
                </identifier>
                <name>
                <use value="official" />
                    <text value="Wiebke Metzger" />
                    <family value="Metzger">
                        <extension url="http://hl7.org/fhir/StructureDefinition/humanname-own-name">
                            <valueString value="Metzger" />
                        </extension>
                    </family>
                    <given value="Wiebke" />
                </name>
                <gender value="female" />
                <birthDate value="2014-02-17" />
            </Patient>
        </resource>
    </entry>
    <entry>
        <fullUrl value="urn:uuid:e85af249-93fc-4f7f-ada8-6b72c29ae30b"/>
        <resource>
            <Practitioner>
                <id value="e85af249-93fc-4f7f-ada8-6b72c29ae30b" />
                <meta>
                    <profile value="https://fhir.kbv.de/StructureDefinition/KBV_PR_MIO_Vaccination_Practitioner|1.1.0" />
                </meta>
                <extension url="https://fhir.kbv.de/StructureDefinition/KBV_EX_Base_Additional_Comment">
                <valueString value="Behandelnder Arzt" />
                </extension>
                <identifier>
                <type>
                    <coding>
                    <system value="http://terminology.hl7.org/CodeSystem/v2-0203" />
                    <code value="LANR" />
                    </coding>
                </type>
                <system value="https://fhir.kbv.de/NamingSystem/KBV_NS_Base_ANR" />
                <value value="520886234" />
                </identifier>
                <name>
                <use value="official" />
                <family value="Schulz">
                    <extension url="http://hl7.org/fhir/StructureDefinition/humanname-own-name">
                    <valueString value="Schulz" />
                    </extension>
                </family>
                <given value="Edgar" />
                <prefix value="Dr.">
                    <extension url="http://hl7.org/fhir/StructureDefinition/iso21090-EN-qualifier">
                    <valueCode value="AC" />
                    </extension>
                </prefix>
                </name>
                <telecom>
                <system value="phone" />
                <value value="+49(0)9853111893" />
                </telecom>
            <qualification>
                <code>
                    <coding>
                    <system value="https://fhir.kbv.de/CodeSystem/KBV_CS_SFHIR_BAR2_WBO" />
                    <code value="341" />
                    <display value="FA Kinder- und Jugendmedizin"/>
                    </coding>
                </code>
                </qualification>
            </Practitioner>
        </resource>
    </entry>
    <entry>
        <fullUrl value="urn:uuid:7b4b1dc7-b47a-4440-a955-1112930441f3"/>
        <resource>
            <PractitionerRole xmlns="http://hl7.org/fhir">
                <id value="7b4b1dc7-b47a-4440-a955-1112930441f3" />
                <meta>
                    <profile value="https://fhir.kbv.de/StructureDefinition/KBV_PR_MIO_Vaccination_Practitionerrole|1.1.0" />
                </meta>
                <practitioner>
                    <reference value="urn:uuid:e85af249-93fc-4f7f-ada8-6b72c29ae30b" />
                </practitioner>
                <organization>
                    <reference value="urn:uuid:aa80d007-04f3-4045-92b6-d55c2008d610" />
                </organization>
            </PractitionerRole>
        </resource>
    </entry>
</Bundle>