<Bundle xmlns="http://hl7.org/fhir">
    <id value="40cc9188-bbd0-4003-91d7-776eae79bcab" />
    <meta>
        <profile value="https://fhir.kbv.de/StructureDefinition/KBV_PR_MIO_Vaccination_Bundle_Entry|1.1.0" />
    </meta>
    <identifier>
        <system value="urn:ietf:rfc:3986"/>
        <value value="urn:uuid:40cc9188-bbd0-4003-91d7-776eae79bcab"/>
    </identifier>
    <type value ="document"/>
    <timestamp value="2015-10-13T16:00:02Z"/>
    <entry>
        <fullUrl value="urn:uuid:c3f9f242-a1d9-4e21-bec7-c770b9929eeb"/>
        <resource>
            <Composition>
                <id value="c3f9f242-a1d9-4e21-bec7-c770b9929eeb" />
                <meta>
                    <profile value="https://fhir.kbv.de/StructureDefinition/KBV_PR_MIO_Vaccination_Composition_Prime|1.1.0" />
                </meta>
                <text>
                    <status value ="extensions"/>
                    <div xmlns="http://www.w3.org/1999/xhtml">
                        <h1>Composition</h1>
                    </div>
                </text>
                <status value ="final"/>
                <type>
                    <coding>
                        <system value="http://loinc.org" />
                        <code value="11369-6" />
                        <display value="History of Immunization Narrative"/>
                    </coding>
                </type>
                <subject>
                    <reference value ="urn:uuid:85e72a0c-0e9b-4afe-a6f8-67157bd658ac"/>
                </subject>
                <date value="2015-10-13"/>
                <author>
                    <reference value="urn:uuid:a9554588-131d-4d6d-8305-2dede1fb5d2a"/>
                </author>
                <title value="Impfass"/>
                <section>
                    <code>
                        <coding>
                            <system value="http://snomed.info/sct" />
                            <version value="http://snomed.info/sct/900000000000207008/version/20210131" />
                            <code value="243796009:363589002=121258006" />
                            <display value="Situation with explicit context (situation) : Associated procedure (attribute) = Procedure to identify antibody (procedure)"/>
                        </coding>
                    </code>
                    <entry>
                        <reference value ="urn:uuid:f9b45bc8-a48e-422f-824c-4fda8010f0b2"/>
                    </entry>
                </section>
            </Composition>
        </resource>
    </entry>
    <entry>
        <fullUrl value="urn:uuid:f9b45bc8-a48e-422f-824c-4fda8010f0b2"/>
        <resource>
            <Observation>
                <id value="f9b45bc8-a48e-422f-824c-4fda8010f0b2" />
                <meta>
                    <profile value="https://fhir.kbv.de/StructureDefinition/KBV_PR_MIO_Vaccination_Observation_Immunization_Status|1.1.0" />
                </meta>
                <status value="final"/>
                <code>
                    <coding>
                        <system value ="http://snomed.info/sct"/>
                        <version value="http://snomed.info/sct/900000000000207008/version/20210131" />
                        <code value ="363787002:370134009=123029007,246093002=122450004,370132008=117363000,704319004=50863008,370130000=705057003,704327008=119364003"/>
                        <display value ="Observable entity (observable entity) : Time aspect (attribute) = Single point in time (qualifier value) , Component (attribute) = Antibody to hepatitis B virus (substance) , Scale type (attribute) = Ordinal value (qualifier value) , Inheres in (attribute) = Plasma (substance) , Property (attribute) = Presence (property) (qualifier value) , Direct site (attribute) = Serum specimen (specimen)">
                            <extension url ="https://fhir.kbv.de/StructureDefinition/KBV_EX_Base_Terminology_German">
                                <extension url ="content">
                                    <valueString value ="Hepatitis B Antikörpernachweis"/>
                                </extension>
                            </extension>
                        </display>         
                    </coding>
                    <coding>
                        <system value ="http://loinc.org"/>
                        <version value="2.69" />
                        <code value ="22322-2"/>
                        <display value ="Hepatitis B virus surface Ab [Presence] in Serum">
                            <extension url ="https://fhir.kbv.de/StructureDefinition/KBV_EX_Base_Terminology_German">
                                <extension url ="content">
                                    <valueString value ="Hepatitis B Antikörpernachweis"/>
                                </extension>
                            </extension>
                        </display>         
                    </coding>
                </code>
                <subject>
                    <reference value ="urn:uuid:85e72a0c-0e9b-4afe-a6f8-67157bd658ac"/>
                </subject>
                <issued value="2015-10-13T16:00:02Z"/>
                <interpretation>
                    <coding>
                        <system value ="http://snomed.info/sct"/>
                        <version value="http://snomed.info/sct/900000000000207008/version/20210131" />
                        <code value ="365861007:363713009=10828004"/>
                        <display value ="Finding of immune status (finding) : Has interpretation (attribute) = Positive (qualifier value)">
                            <extension url ="https://fhir.kbv.de/StructureDefinition/KBV_EX_Base_Terminology_German">
                                <extension url ="content">
                                    <valueString value ="Immunität erreicht"/>
                                </extension>
                            </extension>
                        </display>         
                    </coding>
                </interpretation>
                <note>
                    <text value="Titer bestimmt mit 113 IE / L"/>
                </note>
            </Observation>
        </resource>
    </entry>
    <entry>
        <fullUrl value="urn:uuid:92017ba7-fcf2-443f-9c22-275a1209b6d6"/>
        <resource>
            <Organization>
                <id value="92017ba7-fcf2-443f-9c22-275a1209b6d6" />
                <meta>
                    <profile value="https://fhir.kbv.de/StructureDefinition/KBV_PR_MIO_Vaccination_Organization|1.1.0" />
                </meta>
                <name value="Praxis Dr. Edgar Schulz" />
                <address>
                    <type value="both" />
                    <line value="Wladimir-Wiese-Straße 9/8">
                        <extension url="http://hl7.org/fhir/StructureDefinition/iso21090-ADXP-houseNumber">
                            <valueString value="9/8" />
                        </extension>
                        <extension url="http://hl7.org/fhir/StructureDefinition/iso21090-ADXP-streetName">
                            <valueString value="Wladimir-Wiese-Straße" />
                        </extension>
                    </line>
                    <city value="Viersen" />
                    <postalCode value="37220" />
                    <country value="D" />
                </address>
            </Organization>
        </resource>
    </entry>
    <entry>
        <fullUrl value="urn:uuid:85e72a0c-0e9b-4afe-a6f8-67157bd658ac"/>
        <resource>
            <Patient>
                <id value="85e72a0c-0e9b-4afe-a6f8-67157bd658ac" />
                <meta>
                    <profile value="https://fhir.kbv.de/StructureDefinition/KBV_PR_MIO_Vaccination_Patient|1.1.0" />
                </meta>
                <identifier>
                    <type>
                        <coding>
                            <system value="http://fhir.de/CodeSystem/identifier-type-de-basis" />
                            <code value="GKV" />
                            <display value ="Gesetzliche Krankenversicherung"/>
                        </coding>
                    </type>
                    <system value="http://fhir.de/NamingSystem/gkv/kvid-10" />
                    <value value="B783522772" />
                </identifier>
                <name>
                <use value="official" />
                    <text value="Wiebke Metzger" />
                    <family value="Metzger">
                        <extension url="http://hl7.org/fhir/StructureDefinition/humanname-own-name">
                            <valueString value="Metzger" />
                        </extension>
                    </family>
                    <given value="Wiebke" />
                </name>
                <gender value="female" />
                <birthDate value="2014-02-17" />
            </Patient>
        </resource>
    </entry>
    <entry>
        <fullUrl value="urn:uuid:a5475b8d-3088-41b6-a41b-8ac8afec176a"/>
        <resource>
            <Practitioner>
                <id value="a5475b8d-3088-41b6-a41b-8ac8afec176a" />
                <meta>
                    <profile value="https://fhir.kbv.de/StructureDefinition/KBV_PR_MIO_Vaccination_Practitioner|1.1.0" />
                </meta>
                <extension url="https://fhir.kbv.de/StructureDefinition/KBV_EX_Base_Additional_Comment">
                <valueString value="Behandelnder Arzt" />
                </extension>
                <identifier>
                <type>
                    <coding>
                    <system value="http://terminology.hl7.org/CodeSystem/v2-0203" />
                    <code value="LANR" />
                    </coding>
                </type>
                <system value="https://fhir.kbv.de/NamingSystem/KBV_NS_Base_ANR" />
                <value value="520886234" />
                </identifier>
                <name>
                <use value="official" />
                <family value="Schulz">
                    <extension url="http://hl7.org/fhir/StructureDefinition/humanname-own-name">
                    <valueString value="Schulz" />
                    </extension>
                </family>
                <given value="Edgar" />
                <prefix value="Dr.">
                    <extension url="http://hl7.org/fhir/StructureDefinition/iso21090-EN-qualifier">
                    <valueCode value="AC" />
                    </extension>
                </prefix>
                </name>
                <telecom>
                <system value="phone" />
                <value value="+49(0)9853111893" />
                </telecom>
            <qualification>
                <code>
                    <coding>
                    <system value="https://fhir.kbv.de/CodeSystem/KBV_CS_SFHIR_BAR2_WBO" />
                    <code value="341" />
                    <display value="FA Kinder- und Jugendmedizin"/>
                    </coding>
                </code>
                </qualification>
            </Practitioner>
        </resource>
    </entry>
    <entry>
        <fullUrl value="urn:uuid:a9554588-131d-4d6d-8305-2dede1fb5d2a"/>
        <resource>
            <PractitionerRole>
                <id value="a9554588-131d-4d6d-8305-2dede1fb5d2a" />
                <meta>
                    <profile value="https://fhir.kbv.de/StructureDefinition/KBV_PR_MIO_Vaccination_Practitionerrole|1.1.0" />
                </meta>
                <practitioner>
                    <reference value="urn:uuid:a5475b8d-3088-41b6-a41b-8ac8afec176a" />
                </practitioner>
                <organization>
                    <reference value="urn:uuid:92017ba7-fcf2-443f-9c22-275a1209b6d6" />
                </organization>
            </PractitionerRole>
        </resource>
    </entry>
</Bundle>