<Bundle xmlns="http://hl7.org/fhir">
    <id value="41851058-2767-4a4f-a925-253ae10e1092" />
    <meta>
        <profile value="https://fhir.kbv.de/StructureDefinition/KBV_PR_MIO_Vaccination_Bundle_Entry|1.1.0" />
    </meta>
    <identifier>
        <system value="urn:ietf:rfc:3986"/>
        <value value="urn:uuid:41851058-2767-4a4f-a925-253ae10e1092"/>
    </identifier>
    <type value ="document"/>
    <timestamp value="2014-04-28T16:00:02Z"/>
    <entry>
        <fullUrl value="urn:uuid:14383c54-532d-464f-95d1-b3e598e62264"/>
        <resource>
            <Composition>
                <id value="14383c54-532d-464f-95d1-b3e598e62264" />
                <meta>
                    <profile value="https://fhir.kbv.de/StructureDefinition/KBV_PR_MIO_Vaccination_Composition_Prime|1.1.0" />
                </meta>
                <text>
                    <status value ="extensions"/>
                    <div xmlns="http://www.w3.org/1999/xhtml">
                        <h1>Composition</h1>
                    </div>
                </text>
                <status value ="final"/>
                <type>
                    <coding>
                        <system value="http://loinc.org" />
                        <code value="11369-6" />
                        <display value="History of Immunization Narrative"/>
                    </coding>
                </type>
                <subject>
                    <reference value ="urn:uuid:86ae5944-1282-421d-a842-212e5e313442"/>
                </subject>
                <date value="2014-04-28"/>
                <author>
                    <reference value ="urn:uuid:d17f1bec-4561-4b3f-8fbf-898b005018e2"/>
                </author>
                <title value="Impfass"/>
                <section>
                    <code>
                        <coding>
                            <system value="http://snomed.info/sct" />
                            <version value="http://snomed.info/sct/900000000000207008/version/20210131" />
                            <code value="713404003" />
                            <display value="Vaccination given (situation)"/>
                        </coding>
                    </code>
                    <entry>
                        <reference value ="urn:uuid:e115f03e-92ba-4b6b-a651-6527652fe803"/>
                    </entry>
                    <entry>
                        <reference value ="urn:uuid:d92fab06-c0c7-4eaa-9d7a-e5d4a1b0570c"/>
                    </entry>
                </section>
            </Composition>
        </resource>
    </entry>
    <entry>
        <fullUrl value="urn:uuid:e115f03e-92ba-4b6b-a651-6527652fe803"/>
        <resource>
            <Immunization>
                <id value="e115f03e-92ba-4b6b-a651-6527652fe803"/>
                <meta>
                    <profile value="https://fhir.kbv.de/StructureDefinition/KBV_PR_MIO_Vaccination_Record_Prime|1.1.0"/>
                </meta>
                <text>
                    <status value="extensions"/>
                    <div xmlns="http://www.w3.org/1999/xhtml">
                    <h1>Pneumokokkenimpfstoff</h1>
                    </div>
                </text>
                <extension url ="https://fhir.kbv.de/StructureDefinition/KBV_EX_MIO_Vaccination_Entry_Type">
                    <valueCodeableConcept>
                        <coding>
                            <system value ="https://fhir.kbv.de/CodeSystem/KBV_CS_MIO_Vaccination_Technical_Entry_Type"/>
                            <code value ="Eduii"/>
                            <display value ="Eintrag digital und im Impfausweis"/>
                        </coding>
                    </valueCodeableConcept>
                </extension>
                <extension url = "https://fhir.kbv.de/StructureDefinition/KBV_EX_MIO_Vaccination_Attester">
                    <extension url= "mode">
                        <valueCodeableConcept>
                            <coding>
                                <system value ="http://hl7.org/fhir/composition-attestation-mode"/>
                                <code value ="legal"/>
                            </coding>
                        </valueCodeableConcept>
                    </extension>
                    <extension url ="party">
                        <valueReference>
                            <reference value ="urn:uuid:d17f1bec-4561-4b3f-8fbf-898b005018e2"/>
                        </valueReference>
                    </extension>
                </extension>
                <status value="completed"/>
                <vaccineCode>
                    <coding>
                        <system value ="http://snomed.info/sct"/>
                        <version value="http://snomed.info/sct/900000000000207008/version/20210131" />
                        <code value ="836398006"/>
                        <display value ="Vaccine product containing Streptococcus pneumoniae antigen (medicinal product)">
                            <extension url ="https://fhir.kbv.de/StructureDefinition/KBV_EX_Base_Terminology_German">
                                <extension url ="content">
                                    <valueString value ="Pneumokokkenimpfstoff"/>
                                </extension>
                            </extension>
                        </display>         
                    </coding>
                    <coding>
                        <system value ="http://fhir.de/CodeSystem/dimdi/atc"/>
                        <version value="atcgm2021" />
                        <code value ="J07AL"/>
                        <display value ="Pneumokokken-Impfstoffe"/>
                    </coding>
                    <coding>
                        <system value ="http://fhir.de/CodeSystem/ifa/pzn"/>
                        <code value ="05496276"/>
                        <display value ="Prevenar 13®"/>
                    </coding>
                    <text value ="Prevenar 13®"/>
                </vaccineCode>
                <patient>
                    <reference value ="urn:uuid:86ae5944-1282-421d-a842-212e5e313442"/>
                </patient>
                <occurrenceDateTime value ="2014-04-28"/>
                <primarySource value ="true"/>
                <manufacturer>
                    <display value ="Pfizer Pharma GmbH"/>
                </manufacturer>
                <lotNumber value ="H25381"/>
                <note> 
                    <text value ="Bei einer ungewöhnlichen Impfreaktion sollte die impfende ärztliche Person benachrichtigt werden. Die ärztlich tätige Person hat, wenn der Verdacht einer gesundheitlichen Schädigung besteht, die über das übliche Ausmaß einer Impfreaktion hinaus geht verpflichtet, den Verdacht dem zuständigen Gesundheitsamt namentlich zu melden (§ 6 Absatz 1 Nr 3 des lnfektionsschutzgesetzes • lfSG) Im Falle eines Impfschadens besteht unter den Voraussetzungen des § 60 Absatz 1 lfSG ein Anspruch auf Entschädigung in entsprechender Anwendung der Vorschriften des Bundesversorgungsgesetzes. Der Antrag ist bei der für die Durchführung des Bundesversorgungsgesetzes zuständigen Behörde (§ 64 Absatz 1 lfSG, i.d.R. 'Versorgungsamt') zu stellen. Weitere Auskünfte erteilt das zuständige Gesundheitsamt."/> 
                </note>
                <protocolApplied>
                    <extension url="https://fhir.kbv.de/StructureDefinition/KBV_EX_MIO_Vaccination_Follow_Up">
                    <valueDateTime value ="2014-06-04"/>
                    </extension>
                    <targetDisease>
                        <coding>
                            <system value ="http://snomed.info/sct"/>
                            <version value="http://snomed.info/sct/900000000000207008/version/20210131" />
                            <code value ="16814004"/>
                            <display value ="Pneumococcal infectious disease (disorder)">
                                <extension url ="https://fhir.kbv.de/StructureDefinition/KBV_EX_Base_Terminology_German">
                                    <extension url ="content">
                                        <valueString value ="Pneumokokken-Infektion"/>
                                    </extension>
                                </extension>
                            </display>         
                        </coding>
                    </targetDisease>
                    <doseNumberString>
                        <extension url ="http://hl7.org/fhir/StructureDefinition/data-absent-reason">
                            <valueCode value ="unknown"/>
                        </extension>
                    </doseNumberString>
                </protocolApplied>
            </Immunization>
        </resource>
    </entry>
    <entry>
        <fullUrl value="urn:uuid:d92fab06-c0c7-4eaa-9d7a-e5d4a1b0570c"/>
        <resource>
            <Immunization>
                <id value="d92fab06-c0c7-4eaa-9d7a-e5d4a1b0570c"/>
                <meta>
                    <profile value="https://fhir.kbv.de/StructureDefinition/KBV_PR_MIO_Vaccination_Record_Prime|1.1.0"/>
                </meta>
                <text>
                    <status value="extensions"/>
                    <div xmlns="http://www.w3.org/1999/xhtml">
                    <h1>Tetanus, Diphterie, Pertussis, Poliomyelitis, Haemophilus influenzae b, Hepatitis B</h1>
                    </div>
                </text>
                <extension url ="https://fhir.kbv.de/StructureDefinition/KBV_EX_MIO_Vaccination_Entry_Type">
                    <valueCodeableConcept>
                        <coding>
                            <system value ="https://fhir.kbv.de/CodeSystem/KBV_CS_MIO_Vaccination_Technical_Entry_Type"/>
                            <code value ="Eduii"/>
                            <display value ="Eintrag digital und im Impfausweis"/>
                        </coding>
                    </valueCodeableConcept>
                </extension>
                <extension url = "https://fhir.kbv.de/StructureDefinition/KBV_EX_MIO_Vaccination_Attester">
                    <extension url= "mode">
                        <valueCodeableConcept>
                            <coding>
                                <system value ="http://hl7.org/fhir/composition-attestation-mode"/>
                                <code value ="legal"/>
                            </coding>
                        </valueCodeableConcept>
                    </extension>
                    <extension url ="party">
                        <valueReference>
                            <reference value ="urn:uuid:d17f1bec-4561-4b3f-8fbf-898b005018e2"/>
                        </valueReference>
                    </extension>
                </extension>
                <status value="completed"/>
                <vaccineCode>
                    <coding>
                        <system value ="http://snomed.info/sct"/>
                        <version value="http://snomed.info/sct/900000000000207008/version/20210131" />
                        <code value ="871895005"/>
                        <display value ="Vaccine product containing only Bordetella pertussis and Clostridium tetani and Corynebacterium diphtheriae and Haemophilus influenzae type B and Hepatitis B virus and Human poliovirus antigens (medicinal product)">
                            <extension url ="https://fhir.kbv.de/StructureDefinition/KBV_EX_Base_Terminology_German">
                                <extension url ="content">
                                    <valueString value ="Diphtherie-Haemophilus influenzae B-Pertussis, Poliomyelitis, Tetanus, Hepatitis B-Impfstoff"/>
                                </extension>
                            </extension>
                        </display>         
                    </coding>
                    <coding>
                        <system value ="http://fhir.de/CodeSystem/dimdi/atc"/>
                        <version value="atcgm2021" />
                        <code value ="J07CA09"/>
                        <display value ="Diphtherie-Haemophilus influenzae  B-Pertussis-Poliomyelitis-Tetanus-Hepatitis B"/>
                    </coding>
                    <coding>
                        <system value ="http://fhir.de/CodeSystem/ifa/pzn"/>
                        <code value ="10538539"/>
                        <display value ="Infanrix hexa®"/>
                    </coding>
                    <text value ="Infanrix hexa®"/>
                </vaccineCode>
                <patient>
                    <reference value ="urn:uuid:86ae5944-1282-421d-a842-212e5e313442"/>
                </patient>
                <occurrenceDateTime value ="2014-04-28"/>
                <primarySource value ="true"/>
                <manufacturer>
                    <display value ="GlaxoSmithKline GmbH &amp; Co. KG"/>
                </manufacturer>
                <lotNumber value ="SIG116453"/>
                <note> 
                    <text value ="Bei einer ungewöhnlichen Impfreaktion sollte die impfende ärztliche Person benachrichtigt werden. Die ärztlich tätige Person hat, wenn der Verdacht einer gesundheitlichen Schädigung besteht, die über das übliche Ausmaß einer Impfreaktion hinaus geht verpflichtet, den Verdacht dem zuständigen Gesundheitsamt namentlich zu melden (§ 6 Absatz 1 Nr 3 des lnfektionsschutzgesetzes • lfSG) Im Falle eines Impfschadens besteht unter den Voraussetzungen des § 60 Absatz 1 lfSG ein Anspruch auf Entschädigung in entsprechender Anwendung der Vorschriften des Bundesversorgungsgesetzes. Der Antrag ist bei der für die Durchführung des Bundesversorgungsgesetzes zuständigen Behörde (§ 64 Absatz 1 lfSG, i.d.R. 'Versorgungsamt') zu stellen. Weitere Auskünfte erteilt das zuständige Gesundheitsamt."/> 
                </note>
                <protocolApplied>
                    <extension url="https://fhir.kbv.de/StructureDefinition/KBV_EX_MIO_Vaccination_Follow_Up">
                    <valueDateTime value ="2014-06-04"/>
                    </extension>
                    <targetDisease>
                        <coding>
                            <system value ="http://snomed.info/sct"/>
                            <version value="http://snomed.info/sct/900000000000207008/version/20210131" />
                            <code value ="76902006"/>
                            <display value ="Tetanus (disorder)">
                                <extension url ="https://fhir.kbv.de/StructureDefinition/KBV_EX_Base_Terminology_German">
                                    <extension url ="content">
                                        <valueString value ="Tetanus-Infektion"/>
                                    </extension>
                                </extension>
                            </display>         
                        </coding>
                    </targetDisease>
                    <targetDisease>
                        <coding>
                            <system value ="http://snomed.info/sct"/>
                            <version value="http://snomed.info/sct/900000000000207008/version/20210131" />
                            <code value ="397430003"/>
                            <display value ="Diphtheria caused by Corynebacterium diphtheriae (disorder)">
                                <extension url ="https://fhir.kbv.de/StructureDefinition/KBV_EX_Base_Terminology_German">
                                    <extension url ="content">
                                        <valueString value ="Diphtherie"/>
                                    </extension>
                                </extension>
                            </display>         
                        </coding>
                    </targetDisease>
                    <targetDisease>
                        <coding>
                            <system value ="http://snomed.info/sct"/>
                            <version value="http://snomed.info/sct/900000000000207008/version/20210131" />
                            <code value ="27836007"/>
                            <display value ="Pertussis (disorder)">
                                <extension url ="https://fhir.kbv.de/StructureDefinition/KBV_EX_Base_Terminology_German">
                                    <extension url ="content">
                                        <valueString value ="Pertussis"/>
                                    </extension>
                                </extension>
                            </display>         
                        </coding>
                    </targetDisease>
                    <targetDisease>
                        <coding>
                            <system value ="http://snomed.info/sct"/>
                            <version value="http://snomed.info/sct/900000000000207008/version/20210131" />
                            <code value ="398102009"/>
                            <display value ="Acute poliomyelitis (disorder)">
                                <extension url ="https://fhir.kbv.de/StructureDefinition/KBV_EX_Base_Terminology_German">
                                    <extension url ="content">
                                        <valueString value ="Poliomyelitis"/>
                                    </extension>
                                </extension>
                            </display>         
                        </coding>
                    </targetDisease>
                    <targetDisease>
                        <coding>
                            <system value ="http://snomed.info/sct"/>
                            <version value="http://snomed.info/sct/900000000000207008/version/20210131" />
                            <code value ="709410003"/>
                            <display value ="Haemophilus influenzae type b infection (disorder)">
                                <extension url ="https://fhir.kbv.de/StructureDefinition/KBV_EX_Base_Terminology_German">
                                    <extension url ="content">
                                        <valueString value ="Haemophilus-influenzae-Typ-B-Infektion"/>
                                    </extension>
                                </extension>
                            </display>         
                        </coding>
                    </targetDisease>
                    <targetDisease>
                        <coding>
                            <system value ="http://snomed.info/sct"/>
                            <version value="http://snomed.info/sct/900000000000207008/version/20210131" />
                            <code value ="66071002"/>
                            <display value ="Viral hepatitis type B (disorder)">
                                <extension url ="https://fhir.kbv.de/StructureDefinition/KBV_EX_Base_Terminology_German">
                                    <extension url ="content">
                                        <valueString value ="Hepatitis B"/>
                                    </extension>
                                </extension>
                            </display>         
                        </coding>
                    </targetDisease>
                    <doseNumberString>
                        <extension url ="http://hl7.org/fhir/StructureDefinition/data-absent-reason">
                            <valueCode value ="unknown"/>
                        </extension>
                    </doseNumberString>
                </protocolApplied>
            </Immunization>
        </resource>
    </entry>
    <entry>
        <fullUrl value="urn:uuid:86ae5944-1282-421d-a842-212e5e313442"/>
        <resource>
            <Patient>
                <id value="86ae5944-1282-421d-a842-212e5e313442" />
                <meta>
                    <profile value="https://fhir.kbv.de/StructureDefinition/KBV_PR_MIO_Vaccination_Patient|1.1.0" />
                </meta>
                <identifier>
                    <type>
                        <coding>
                            <system value="http://fhir.de/CodeSystem/identifier-type-de-basis" />
                            <code value="GKV" />
                            <display value ="Gesetzliche Krankenversicherung"/>
                        </coding>
                    </type>
                    <system value="http://fhir.de/NamingSystem/gkv/kvid-10" />
                    <value value="B783522772" />
                </identifier>
                <name>
                <use value="official" />
                    <text value="Wiebke Metzger" />
                    <family value="Metzger">
                        <extension url="http://hl7.org/fhir/StructureDefinition/humanname-own-name">
                            <valueString value="Metzger" />
                        </extension>
                    </family>
                    <given value="Wiebke" />
                </name>
                <gender value="female" />
                <birthDate value="2014-02-17" />
            </Patient>
        </resource>
    </entry>
    <entry>
        <fullUrl value ="urn:uuid:3dd5b914-756c-487e-9b74-fcd36adf31db"/>
        <resource>
            <Practitioner>
                <id value="3dd5b914-756c-487e-9b74-fcd36adf31db" />
                <meta>
                    <profile value="https://fhir.kbv.de/StructureDefinition/KBV_PR_MIO_Vaccination_Practitioner|1.1.0" />
                </meta>
                <extension url="https://fhir.kbv.de/StructureDefinition/KBV_EX_Base_Additional_Comment">
                <valueString value="Behandelnder Arzt" />
                </extension>
                <identifier>
                <type>
                    <coding>
                    <system value="http://terminology.hl7.org/CodeSystem/v2-0203" />
                    <code value="LANR" />
                    </coding>
                </type>
                <system value="https://fhir.kbv.de/NamingSystem/KBV_NS_Base_ANR" />
                <value value="520886234" />
                </identifier>
                <name>
                <use value="official" />
                <family value="Schulz">
                    <extension url="http://hl7.org/fhir/StructureDefinition/humanname-own-name">
                    <valueString value="Schulz" />
                    </extension>
                </family>
                <given value="Edgar" />
                <prefix value="Dr.">
                    <extension url="http://hl7.org/fhir/StructureDefinition/iso21090-EN-qualifier">
                    <valueCode value="AC" />
                    </extension>
                </prefix>
                </name>
                <telecom>
                <system value="phone" />
                <value value="+49(0)9853111893" />
                </telecom>
            <qualification>
                <code>
                    <coding>
                    <system value="https://fhir.kbv.de/CodeSystem/KBV_CS_SFHIR_BAR2_WBO" />
                    <code value="341" />
                    <display value="FA Kinder- und Jugendmedizin"/>
                    </coding>
                </code>
                </qualification>
            </Practitioner>
        </resource>
    </entry>
    <entry>
        <fullUrl value="urn:uuid:d17f1bec-4561-4b3f-8fbf-898b005018e2"/>
        <resource>
            <PractitionerRole>
                <id value="d17f1bec-4561-4b3f-8fbf-898b005018e2" />
                <meta>
                    <profile value="https://fhir.kbv.de/StructureDefinition/KBV_PR_MIO_Vaccination_Practitionerrole|1.1.0" />
                </meta>
                <practitioner>
                    <reference value="urn:uuid:3dd5b914-756c-487e-9b74-fcd36adf31db" />
                </practitioner>
                <organization>
                    <reference value="urn:uuid:253ac82b-b892-4b11-ba14-4cb1a5433968" />
                </organization>
            </PractitionerRole>
        </resource>
    </entry>
    <entry>
        <fullUrl value="urn:uuid:253ac82b-b892-4b11-ba14-4cb1a5433968"/>
        <resource>
            <Organization>
                <id value="253ac82b-b892-4b11-ba14-4cb1a5433968" />
                <meta>
                    <profile value="https://fhir.kbv.de/StructureDefinition/KBV_PR_MIO_Vaccination_Organization|1.1.0" />
                </meta>
                <name value="Praxis Dr. Edgar Schulz" />
                <address>
                    <type value="both" />
                    <line value="Wladimir-Wiese-Straße 9/8">
                        <extension url="http://hl7.org/fhir/StructureDefinition/iso21090-ADXP-houseNumber">
                            <valueString value="9/8" />
                        </extension>
                        <extension url="http://hl7.org/fhir/StructureDefinition/iso21090-ADXP-streetName">
                            <valueString value="Wladimir-Wiese-Straße" />
                        </extension>
                    </line>
                    <city value="Viersen" />
                    <postalCode value="37220" />
                    <country value="D" />
                </address>
            </Organization>
        </resource>
    </entry>
</Bundle>